\DATE= 'Mon Oct  1 13:45:54 2007'
\APERNAME= 'LL2'
\BUNIT= 'e/s/pix'
\CAL_SET= 'irs_2007_02_12-pb-pfc-trim-omeg-lhbiasfork.cal'
\SOFTWARE= 'CUBISM'
\SOFT_VER= 'v1.50pre3 (March-2007)'
\FILENAME= 'll2.tbl'
\ COMMENT This file contains a spectral extraction created from
\ COMMENT an IRS spectral mapping dataset.
\ Extraction Rectangle:
\ # Box: 12:50:26.788,+25:29:48.38 ; 12:50:27.476,+25:30:00.45
\ #      12:50:25.990,+25:30:15.96 ; 12:50:25.303,+25:30:03.90
|   WAVELENGTH    |      FLUX       | FLUX_UNCERTAINTY |
|      real       |      real       |       real       |
|       um        |     e/s/pix     |     e/s/pix      |
         14.26661          3.665757          0.1003769
         14.35830          3.787539         0.09286847
         14.45000          3.775870         0.08272762
         14.54169          3.698717         0.08822145
         14.63338          3.677598         0.07983597
         14.72508          3.749551         0.09088028
         14.81677          3.859362         0.08167486
         14.90846          3.867216         0.07999979
         15.00015          3.800912         0.07751960
         15.09185          3.858183         0.06798030
         15.18354          3.911884          0.1045397
         15.27523          4.065175          0.1631800
         15.36693          3.941987         0.07139277
         15.45862          4.438010          0.5630702
         15.55031          5.028019         0.06938942
         15.64200          5.559398         0.06607728
         15.73370          4.708444         0.06776127
         15.82539          4.487600         0.07179279
         15.91708          4.605759         0.07743631
         16.00878          4.839802         0.08636274
         16.10047          4.772212         0.09543724
         16.19216          4.709300         0.08538981
         16.28386          5.030749         0.09732354
         16.37555          5.122132         0.08874590
         16.46724          5.638738         0.09425520
         16.55893          5.685192         0.09292053
         16.65063          5.582737         0.08783422
         16.74232          5.673159         0.08111248
         16.83401          5.523860         0.09974701
         16.92570          5.908728         0.09767421
         17.01740          7.359006         0.08670848
         17.10909          9.017828         0.08698137
         17.20078          7.344211         0.09277553
         17.29248          6.029479         0.09570234
         17.38417          5.698361         0.09371711
         17.47586          5.700892          0.1077828
         17.56756          5.515451          0.1045203
         17.65925          5.400733         0.09886628
         17.75094          4.987174          0.1037591
         17.84263          5.037698          0.1086437
         17.93433          4.974904          0.1073666
         18.02602          4.916190         0.09005000
         18.11771          4.922202          0.1009287
         18.20941          4.774602         0.09769945
         18.30110          4.760547          0.1125402
         18.39279          4.686906          0.1102142
         18.48449          4.685821         0.09777068
         18.57618          4.546712          0.1069943
         18.66787          4.688407          0.1150039
         18.75956          5.161417          0.2644640
         18.85126          5.203005          0.1334590
         18.94295          4.846047          0.1080082
         19.03464          4.786130          0.1161924
         19.12634          4.795462          0.1294204
         19.21803          4.742608          0.1343239
         19.30972          4.519743          0.1417799
         19.40141          4.244382          0.1311009
         19.49311          4.356398          0.1291494
         19.58480          4.390774          0.1456320
         19.67649          4.017614          0.1362947
         19.76819          4.470010          0.1476694
         19.85988          4.230350          0.1467001
         19.95157          4.076570          0.1696996
         20.04326          4.201886          0.2387460
         20.13496          4.110286          0.1642840
         20.22665          3.829100          0.1630044
         20.31834          4.069344          0.1601505
         20.41004          3.948710          0.1650301
         20.50173          3.991937          0.1739678
         20.59342          3.419743          0.1825344
         20.68512          3.399370          0.1942612
         20.77681          3.385511          0.2137369
         20.86850          3.628119          0.2199949
         20.96019          3.828084          0.2110647
         21.05189          3.651078          0.2195791
