\DATE= 'Thu Sep 27 15:02:42 2007'
\APERNAME= 'LL2'
\BUNIT= 'e/s/pix'
\CAL_SET= 'irs_2007_02_12-pb-pfc-trim-omeg-lhbiasfork.cal'
\SOFTWARE= 'CUBISM'
\SOFT_VER= 'v1.50pre3 (March-2007)'
\FILENAME= 'll2.tbl'
\ COMMENT This file contains a spectral extraction created from
\ COMMENT an IRS spectral mapping dataset.
\ Extraction Rectangle:
\ # Box: 10:43:56.406,+11:42:32.68 ; 10:43:55.556,+11:42:04.88
\ #      10:43:58.396,+11:41:46.15 ; 10:43:59.246,+11:42:13.95
|   WAVELENGTH    |      FLUX       | FLUX_UNCERTAINTY |
|      real       |      real       |       real       |
|       um        |     e/s/pix     |     e/s/pix      |
         14.26661          13.31196         0.06109671
         14.35830          12.81576         0.05615067
         14.45000          12.53120         0.05677611
         14.54169          12.12891         0.05504581
         14.63338          11.82528         0.05626895
         14.72508          11.83241         0.05562494
         14.81677          11.84822         0.05720387
         14.90846          11.90569         0.05575671
         15.00015          11.90487         0.05375500
         15.09185          11.83206         0.05266024
         15.18354          12.10151         0.05204397
         15.27523          12.39211         0.05283482
         15.36693          12.35992         0.05158208
         15.45862          12.70757          0.3132953
         15.55031          14.99517          0.7810996
         15.64200          15.50753          0.2115398
         15.73370          14.08355         0.04851075
         15.82539          14.17515         0.04980110
         15.91708          14.76952         0.05737089
         16.00878          15.12924         0.05935264
         16.10047          15.49592         0.06002208
         16.19216          15.95104         0.06464062
         16.28386          17.09354         0.06538079
         16.37555          19.53709         0.06470148
         16.46724          22.48975         0.06859963
         16.55893          22.41651         0.07424481
         16.65063          21.41767         0.06162770
         16.74232          21.63422         0.06240021
         16.83401          22.38205         0.06566798
         16.92570          23.00684         0.06826000
         17.01740          26.19750         0.06245393
         17.10909          27.59367         0.06229571
         17.20078          25.06716         0.06117970
         17.29248          24.55272         0.06454109
         17.38417          25.15345         0.06566173
         17.47586          24.22190         0.06517055
         17.56756          22.54232         0.06246881
         17.65925          21.70207         0.06378652
         17.75094          21.90414         0.06804128
         17.84263          22.08676         0.07049020
         17.93433          22.40152         0.07047279
         18.02602          21.79123         0.07366093
         18.11771          21.31310         0.06910564
         18.20941          21.09602         0.07406842
         18.30110          21.70583         0.07774086
         18.39279          21.86042         0.08069155
         18.48449          22.51690         0.07981551
         18.57618          23.12412         0.07839112
         18.66787          28.45313         0.08414481
         18.75956          37.63265         0.08988115
         18.85126          30.63022         0.08388244
         18.94295          25.19962         0.07758058
         19.03464          24.27900         0.08706300
         19.12634          25.11287         0.08452964
         19.21803          24.40646         0.08323476
         19.30972          24.94480         0.09888239
         19.40141          24.62262          0.1097344
         19.49311          25.49494         0.09228923
         19.58480          26.26144         0.09686890
         19.67649          26.68627         0.09717838
         19.76819          26.26711          0.1020508
         19.85988          26.12565          0.1285685
         19.95157          26.50427          0.6477438
         20.04326          26.76708          0.2132728
         20.13496          27.16670          0.1708767
         20.22665          27.55035           1.200539
         20.31834          27.64030           1.223035
         20.41004          28.21544          0.1145420
         20.50173          28.11194          0.1253971
         20.59342          28.39214          0.2490668
         20.68512          28.24859          0.1376872
         20.77681          28.27183          0.1338350
         20.86850          27.91489          0.1309378
         20.96019          27.43506          0.1327714
         21.05189          27.34593          0.1205839
