\DATE= 'Sat May 31 19:20:56 2008'
\APERNAME= 'LL2'
\BUNIT= 'e/s/pix'
\CAL_SET= 'irs_2007_02_12-pb-pfc-trim-omeg-lhbiasfork.cal'
\SOFTWARE= 'CUBISM'
\SOFT_VER= 'v1.50pre3 (March-2007)'
\FILENAME= 'll2.tbl'
\ COMMENT This file contains a spectral extraction created from
\ COMMENT an IRS spectral mapping dataset.
\ Extraction Rectangle:
\ # Box: 02:27:14.356,+33:34:55.96 ; 02:27:15.203,+33:34:22.01
\ #      02:27:17.919,+33:34:32.59 ; 02:27:17.073,+33:35:06.54
|   WAVELENGTH    |      FLUX       | FLUX_UNCERTAINTY |
|      real       |      real       |       real       |
|       um        |     e/s/pix     |     e/s/pix      |
         14.26661          1.343454         0.06570438
         14.35830          1.175350         0.05092739
         14.45000          1.133719         0.04967539
         14.54169          1.061474         0.05407316
         14.63338         0.9731250         0.05344104
         14.72508          1.022364         0.05531197
         14.81677          1.098903         0.05533050
         14.90846          1.048198         0.05017649
         15.00015         0.9231880         0.04575363
         15.09185         0.9667632         0.04380545
         15.18354         0.9166242         0.04343215
         15.27523          1.016152         0.04439050
         15.36693          1.025215         0.04109191
         15.45862          1.348308         0.03934786
         15.55031          2.166400         0.04228337
         15.64200          2.001049         0.04163639
         15.73370          1.330636         0.04110374
         15.82539          1.190433         0.04718475
         15.91708          1.148332         0.04923245
         16.00878          1.226084         0.05244895
         16.10047          1.471353         0.05612239
         16.19216          1.399437         0.05153563
         16.28386          1.602702         0.05970431
         16.37555          2.172750         0.05726378
         16.46724          2.494253         0.05465960
         16.55893          2.407192         0.05490864
         16.65063          2.075311         0.05274047
         16.74232          2.069016         0.05921993
         16.83401          2.139279         0.05865682
         16.92570          2.163049         0.05600182
         17.01740          2.527301         0.05302511
         17.10909          2.515712         0.05650172
         17.20078          2.328650         0.05283907
         17.29248          2.308828         0.05485630
         17.38417          2.318879         0.05502558
         17.47586          2.119872         0.05293886
         17.56756          1.893710         0.05263089
         17.65925          1.816723         0.05195690
         17.75094          1.840108         0.05565428
         17.84263          1.850391         0.05920475
         17.93433          1.754829         0.06629702
         18.02602          1.465465         0.06923015
         18.11771          1.497672         0.06341340
         18.20941          1.538384         0.06408783
         18.30110          1.569253         0.07085289
         18.39279          1.522501         0.06115130
         18.48449          1.370947         0.06201481
         18.57618          1.508833         0.06825124
         18.66787          2.887209         0.07430730
         18.75956          3.730923         0.07291122
         18.85126          2.328623         0.07204584
         18.94295          1.620575         0.07081742
         19.03464          1.519193         0.07453699
         19.12634          1.396388         0.07278500
         19.21803          1.350382         0.07573922
         19.30972          1.427287         0.07872979
         19.40141          1.341751         0.09932809
         19.49311          1.296003         0.09272025
         19.58480          1.393713         0.08184234
         19.67649          1.472094         0.08774912
         19.76819          1.496045         0.09927561
         19.85988          1.642957          0.1024653
         19.95157          1.596689         0.09585048
         20.04326          1.512064          0.1270673
         20.13496          1.260756          0.2044211
         20.22665          1.532182         0.09929932
         20.31834          1.692699         0.09760754
         20.41004          1.546821          0.1086356
         20.50173          1.326223          0.1036865
         20.59342          1.536711          0.1184050
         20.68512          1.536129          0.1292712
         20.77681          1.734965          0.2201013
         20.86850          1.418968          0.1215621
         20.96019          1.445920          0.1215325
         21.05189          1.645494          0.1180968
