\DATE= 'Mon Oct 15 22:40:34 2007'
\APERNAME= 'SL1'
\BUNIT= 'e/s/pix'
\CAL_SET= 'irs_2007_02_12-pb-pfc-trim-omeg-lhbiasfork.cal'
\SOFTWARE= 'CUBISM'
\SOFT_VER= 'v1.50pre3 (March-2007)'
\FILENAME= 'sl1.tbl'
\ COMMENT This file contains a spectral extraction created from
\ COMMENT an IRS spectral mapping dataset.
\ Extraction Rectangle:
\ # Box: 11:05:49.162,-00:02:08.43 ; 11:05:48.576,-00:02:05.55
\ #      11:05:48.307,-00:02:17.86 ; 11:05:48.893,-00:02:20.74
|   WAVELENGTH    |      FLUX       | FLUX_UNCERTAINTY |
|      real       |      real       |       real       |
|       um        |     e/s/pix     |     e/s/pix      |
         7.533706          24.57280          0.8292894
         7.595799          29.54234          0.9064701
         7.657894          27.11935          0.8620571
         7.719988          27.72402          0.7851051
         7.782082          27.33325          0.8372543
         7.844176          28.32014          0.7613980
         7.906271          26.78461          0.8807548
         7.968365          26.61088          0.7395458
         8.030458          24.35753          0.7570081
         8.092554          23.82359          0.9164307
         8.154648          22.35805          0.7822371
         8.216742          21.12332          0.7072154
         8.278836          21.83439          0.8062300
         8.340930          22.58928          0.6404671
         8.403025          22.87509          0.5603637
         8.465118          21.86379          0.6538681
         8.527213          22.36481          0.5534647
         8.589307          23.39130          0.5393614
         8.651402          22.60995          0.5940714
         8.713495          22.05733          0.6459520
         8.775590          21.28385          0.5163488
         8.837685          19.64463          0.4857733
         8.899778          18.95963          0.4357697
         8.961872          18.46123          0.4382881
         9.023967          18.82928          0.4543478
         9.086061          17.62071          0.5162362
         9.148155          18.70299          0.4276783
         9.210249          18.20891          0.4927988
         9.272344          18.08720          0.4870588
         9.334438          17.97927          0.6737947
         9.396532          18.04724          0.5172129
         9.458626          18.40471          0.5553094
         9.520720          17.94778          0.5881112
         9.582815          18.82205          0.5418959
         9.644909          17.89976          0.5641922
         9.707003          18.70967          0.5180830
         9.769097          19.19486          0.4286668
         9.831192          19.12776          0.4826896
         9.893286          18.98657          0.4427721
         9.955380          18.20115          0.4175411
         10.01747          18.59255          0.4338532
         10.07957          19.83726          0.3908996
         10.14166          18.60742          0.3557028
         10.20376          19.55554          0.3727076
         10.26585          18.47517          0.3690758
         10.32795          18.28226          0.3262956
         10.39004          18.14107          0.3318281
         10.45213          18.85216          0.3956001
         10.51423          19.22726          0.4377718
         10.57632          21.24371          0.4037158
         10.63842          19.77381          0.4163892
         10.70051          21.30031          0.4940587
         10.76260          20.41967          0.4579816
         10.82470          20.75417          0.4689136
         10.88679          19.73206          0.5664186
         10.94889          21.31492          0.5025391
         11.01098          22.29994          0.5357683
         11.07308          24.62663          0.5765120
         11.13517          27.11170          0.5958806
         11.19726          36.18720          0.6610422
         11.25936          42.51477          0.6451462
         11.32145          41.13621          0.5121608
         11.38355          36.24428          0.4721348
         11.44564          31.43738          0.5048497
         11.50774          28.89415          0.4023177
         11.56983          26.07002          0.4861159
         11.63192          24.53600          0.4483148
         11.69402          23.90049          0.4171267
         11.75611          23.37535          0.3798769
         11.81821          24.04422          0.4673810
         11.88030          24.18681          0.4414325
         11.94240          23.89330          0.4012424
         12.00449          25.03919          0.4584789
         12.06658          25.10782          0.4507942
         12.12868          23.76546          0.4576460
         12.19077          24.20956          0.4746964
         12.25287          23.91257          0.5039611
         12.31496          24.24991          0.5402325
         12.37705          24.60016          0.6202350
         12.43915          25.64921          0.5681043
         12.50124          26.16302          0.5625089
         12.56334          27.56901          0.5554810
         12.62543          28.07574          0.5767494
         12.68753          28.12062          0.5023933
         12.74962          28.30577          0.5922507
         12.81171          31.91400          0.5488094
         12.87381          30.40816          0.4470251
         12.93590          25.09680          0.4733047
         12.99800          23.03570          0.4258381
         13.06009          21.90404          0.5073747
         13.12218          21.42925          0.4637254
         13.18428          22.40152          0.4573178
         13.24637          21.97655          0.4711423
         13.30847          22.23742          0.4330937
         13.37056          20.60214          0.4682240
         13.43266          20.54820          0.5014415
         13.49475          20.84665          0.4897684
         13.55684          21.76909          0.5187107
         13.61894          20.46996          0.5113671
         13.68103          20.40982          0.4979361
         13.74313          19.62784          0.5673658
         13.80522          20.22106          0.6290553
         13.86732          19.68628          0.6581436
         13.92941          20.72944          0.7240840
         13.99150          21.67976          0.7432537
         14.05360          21.66651          0.7150782
         14.11569          18.88575          0.7459177
         14.17779          18.60624          0.8275185
         14.23988          21.27983          0.7117401
         14.30198          20.20289          0.8332890
         14.36407          20.85908          0.7908508
         14.42616          17.90431          0.6504093
         14.48826          18.07183          0.5838097
         14.55035          17.95691          0.6036553
         14.61245          17.93492          0.5745873
         14.67454          16.27267          0.5947035
         14.73664          15.92334          0.4621522
