\DATE= 'Mon Oct 15 22:41:01 2007'
\APERNAME= 'SL2'
\BUNIT= 'e/s/pix'
\CAL_SET= 'irs_2007_02_12-pb-pfc-trim-omeg-lhbiasfork.cal'
\SOFTWARE= 'CUBISM'
\SOFT_VER= 'v1.50pre3 (March-2007)'
\FILENAME= 'sl2.tbl'
\ COMMENT This file contains a spectral extraction created from
\ COMMENT an IRS spectral mapping dataset.
\ Extraction Rectangle:
\ # Box: 11:05:48.900,-00:02:08.59 ; 11:05:48.432,-00:02:06.28
\ #      11:05:48.316,-00:02:11.56 ; 11:05:48.785,-00:02:13.86
|   WAVELENGTH    |      FLUX       | FLUX_UNCERTAINTY |
|      real       |      real       |       real       |
|       um        |     e/s/pix     |     e/s/pix      |
         5.242817          38.10939           2.317313
         5.273802          41.13111           2.344255
         5.304788          45.19465           1.865968
         5.335773          38.26752           1.535127
         5.366758          39.07588           1.580665
         5.397744          36.23281           2.002555
         5.428729          39.14038           1.770852
         5.459714          37.06742           1.263285
         5.490700          32.14223           1.090157
         5.521685          37.59024          0.9971035
         5.552670          33.98892           1.528148
         5.583656          35.15786           1.206671
         5.614641          34.28180           1.134786
         5.645627          37.05020           1.176104
         5.676612          32.57868           1.118526
         5.707598          37.71789           1.035551
         5.738583          35.57576           1.051475
         5.769568          35.49146           1.281202
         5.800553          36.41793           1.120164
         5.831539          35.87074           1.239729
         5.862525          37.40775           1.342992
         5.893510          38.48616           1.708259
         5.924495          39.06772           1.830682
         5.955481          39.21367           1.869125
         5.986466          38.75689           2.178686
         6.017451          36.53646           1.760730
         6.048437          37.97049           1.717729
         6.079422          38.56092           1.567312
         6.110407          41.44857           1.655254
         6.141393          38.18601           1.496618
         6.172378          39.24308           1.490477
         6.203363          41.80398           1.521265
         6.234349          39.48735           1.141325
         6.265334          37.73501           1.103417
         6.296319          38.65526           1.120404
         6.327305          32.32405           1.999992
         6.358290          37.64722           1.158461
         6.389276          37.02211           1.508232
         6.420261          36.91653           1.150681
         6.451246          40.78062           1.496953
         6.482232          34.20411           1.627780
         6.513217          31.91691           1.202217
         6.544202          34.90428           1.499633
         6.575188          31.52571           1.459549
         6.606173          32.89204           1.888221
         6.637158          30.70733           1.685034
         6.668144          28.42618           1.521206
         6.699129          33.18155           2.348219
         6.730114          31.92487           1.775375
         6.761100          33.04813           1.671869
         6.792085          35.98497           2.327836
         6.823071          32.12816           2.014284
         6.854056          33.08666           1.554503
         6.885041          30.57699           1.836301
         6.916027          35.09333           2.199008
         6.947012          35.82475           1.843457
         6.977998          33.88825           1.845276
         7.008983          34.39278           1.529983
         7.039968          30.85982           1.714556
         7.070954          32.57949           2.125561
         7.101939          32.31512           1.802113
         7.132924          32.17647           1.794375
         7.163910          32.61795           1.629764
         7.194895          32.42887           1.905344
         7.225881          28.91030           1.881595
         7.256866          34.29375           1.885494
         7.287851          32.59013           2.144107
         7.318837          33.19882           2.657832
         7.349822          30.88703           2.546094
         7.380807          28.88315           2.274182
         7.411793          30.80237           3.837714
         7.442778          31.90488           2.566076
         7.473763          32.65212           2.464240
         7.504749          38.08611           2.697436
         7.535734          37.32537           2.626448
         7.566720          34.28637           2.059585
         7.597705          31.46513           2.542031
