\DATE= 'Fri Feb 15 15:56:16 2008'
\APERNAME= 'SL2'
\BUNIT= 'e/s/pix'
\CAL_SET= 'irs_2007_02_12-pb-pfc-trim-omeg-lhbiasfork.cal'
\SOFTWARE= 'CUBISM'
\SOFT_VER= 'v1.50pre3 (March-2007)'
\FILENAME= 'sl2.tbl'
\ COMMENT This file contains a spectral extraction created from
\ COMMENT an IRS spectral mapping dataset.
\ Extraction Rectangle:
\ # Box: 13:15:48.382,+42:01:39.99 ; 13:15:49.298,+42:01:35.63
\ #      13:15:50.146,+42:01:57.74 ; 13:15:49.230,+42:02:02.10
|   WAVELENGTH    |      FLUX       | FLUX_UNCERTAINTY |
|      real       |      real       |       real       |
|       um        |     e/s/pix     |     e/s/pix      |
         5.242817          11.50679          0.8292130
         5.273802          11.17392          0.8991635
         5.304788          10.08717          0.6684624
         5.335773          10.01384          0.7619727
         5.366758          9.942688          0.6261931
         5.397744          9.917547          0.6204571
         5.428729          8.046715          0.5740977
         5.459714          7.917766          0.5391892
         5.490700          9.557330          0.5136526
         5.521685          10.48267          0.4392581
         5.552670          10.24679          0.4760318
         5.583656          11.49557          0.4509130
         5.614641          11.65776          0.4541822
         5.645627          10.88955          0.4693471
         5.676612          9.797135          0.4440198
         5.707598          11.02878          0.4229458
         5.738583          11.35312          0.4519123
         5.769568          12.49323          0.4753165
         5.800553          12.79757          0.5325219
         5.831539          12.76748          0.5733457
         5.862525          13.24893          0.5023003
         5.893510          12.86565          0.6244075
         5.924495          12.28276          0.6042604
         5.955481          12.98482          0.6645578
         5.986466          13.28080          0.6216386
         6.017451          15.91534          0.5799235
         6.048437          14.70332          0.5991620
         6.079422          15.42030          0.5492790
         6.110407          17.10308          0.4903189
         6.141393          20.28262          0.4674204
         6.172378          24.71331          0.4285642
         6.203363          30.19340          0.4617236
         6.234349          30.32010          0.4117562
         6.265334          28.04162          0.4333782
         6.296319          24.74355          0.4081146
         6.327305          21.80078          0.4645358
         6.358290          21.65967          0.4605572
         6.389276          20.88886          0.4264550
         6.420261          18.35391          0.4216587
         6.451246          17.49817          0.4267854
         6.482232          17.01267          0.4790409
         6.513217          16.36877          0.4794717
         6.544202          15.30484          0.5343052
         6.575188          15.93872          0.6501895
         6.606173          17.77149          0.6746757
         6.637158          17.19105          0.6169122
         6.668144          16.65452          0.6168522
         6.699129          17.81458          0.6220252
         6.730114          17.24627          0.5868326
         6.761100          17.77012          0.6019316
         6.792085          18.00088          0.5514387
         6.823071          18.23194          0.5743678
         6.854056          19.22023          0.6141050
         6.885041          19.82678          0.5301528
         6.916027          20.31866          0.5460339
         6.947012          19.97928          0.5214909
         6.977998          21.19799          0.5799948
         7.008983          21.23803          0.5729001
         7.039968          20.84387          0.8929983
         7.070954          18.61032          0.6272491
         7.101939          19.45506          0.6143719
         7.132924          21.70810          0.5896727
         7.163910          22.61392          0.6067120
         7.194895          21.12058          0.6037893
         7.225881          24.38268          0.6638860
         7.256866          25.45700          0.7470264
         7.287851          26.11290          0.7843663
         7.318837          25.09101          0.8672647
         7.349822          26.71222          0.8730537
         7.380807          28.70000          0.9987661
         7.411793          30.92259          0.8816591
         7.442778          34.56329          0.7641942
         7.473763          34.61278          0.8052708
         7.504749          38.52835          0.9122485
         7.535734          40.55873          0.8648173
         7.566720          43.02523          0.9598784
         7.597705          44.50669           1.024097
