\DATE= 'Sat Sep 22 04:25:14 2007'
\APERNAME= 'LL2'
\BUNIT= 'e/s/pix'
\CAL_SET= 'irs_2007_02_12-pb-pfc-trim-omeg-lhbiasfork.cal'
\SOFTWARE= 'CUBISM'
\SOFT_VER= 'v1.50pre3 (March-2007)'
\FILENAME= 'll2.tbl'
\ COMMENT This file contains a spectral extraction created from
\ COMMENT an IRS spectral mapping dataset.
\ Extraction Rectangle:
\ # Box: 01:36:40.595,+15:47:05.52 ; 01:36:41.246,+15:46:41.93
\ #      01:36:44.843,+15:47:02.62 ; 01:36:44.191,+15:47:26.22
|   WAVELENGTH    |      FLUX       | FLUX_UNCERTAINTY |
|      real       |      real       |       real       |
|       um        |     e/s/pix     |     e/s/pix      |
         14.26661          2.094589         0.05111546
         14.35830          1.960108         0.04414907
         14.45000          1.818943         0.04451737
         14.54169          1.701615         0.04462247
         14.63338          1.588762         0.04879016
         14.72508          1.625951         0.04744796
         14.81677          1.615036         0.04745831
         14.90846          1.566130         0.04634938
         15.00015          1.582613         0.04832935
         15.09185          1.566780          0.1509782
         15.18354          1.684594         0.04070273
         15.27523          1.650977         0.04279365
         15.36693          1.595838         0.05184350
         15.45862          1.637617          0.1750576
         15.55031          2.043751         0.04701500
         15.64200          2.133953         0.03967989
         15.73370          1.877231         0.03944618
         15.82539          1.972775         0.04405762
         15.91708          2.031633         0.04392767
         16.00878          2.119690         0.05030385
         16.10047          2.032310         0.06376140
         16.19216          2.053358         0.05206412
         16.28386          2.398126         0.05302604
         16.37555          2.988192         0.05621480
         16.46724          3.549476         0.05366366
         16.55893          3.386557         0.04864554
         16.65063          3.159405         0.05001824
         16.74232          3.154172         0.04972485
         16.83401          3.271040         0.04900052
         16.92570          3.405567         0.05060001
         17.01740          3.842423         0.04659580
         17.10909          4.089831         0.04618662
         17.20078          3.754708         0.04569369
         17.29248          3.400050         0.04559141
         17.38417          3.572290         0.04764307
         17.47586          3.269364         0.04596278
         17.56756          2.895965         0.04320606
         17.65925          2.637131         0.04931190
         17.75094          2.497328         0.04931115
         17.84263          2.310400         0.05184445
         17.93433          2.293832         0.05125812
         18.02602          2.190191         0.05178278
         18.11771          2.180181         0.05436663
         18.20941          1.990474         0.05553980
         18.30110          1.872084         0.05452026
         18.39279          2.050972         0.06165668
         18.48449          1.925008         0.05925219
         18.57618          2.013544         0.06228968
         18.66787          2.531915         0.06987435
         18.75956          3.196620         0.07531697
         18.85126          2.761278         0.07063565
         18.94295          2.293461         0.07347254
         19.03464          2.224846         0.07496253
         19.12634          1.939281         0.07367385
         19.21803          2.163267         0.07707805
         19.30972          2.056343         0.08137963
         19.40141          2.050012         0.09358940
         19.49311          1.993502         0.08890491
         19.58480          2.177500         0.08180951
         19.67649          1.949554         0.08568069
         19.76819          1.917988         0.08563767
         19.85988          2.013220          0.1285956
         19.95157          1.985043         0.07947553
         20.04326          2.059042         0.08024982
         20.13496          1.726593         0.07840845
         20.22665          1.938013         0.08194081
         20.31834          1.899745         0.08179449
         20.41004          1.743889         0.08581538
         20.50173          1.903966         0.09048709
         20.59342          1.904567         0.09213454
         20.68512          2.071602          0.1167434
         20.77681          1.902864          0.1279965
         20.86850          1.858374          0.1189417
         20.96019          1.703503          0.1180035
         21.05189          1.481323          0.1243132
