\DATE= 'Tue Feb 12 02:03:19 2008'
\APERNAME= 'SL1'
\BUNIT= 'e/s/pix'
\CAL_SET= 'irs_2007_02_12-pb-pfc-trim-omeg-lhbiasfork.cal'
\SOFTWARE= 'CUBISM'
\SOFT_VER= 'v1.50pre3 (March-2007)'
\FILENAME= 'sl1.tbl'
\ COMMENT This file contains a spectral extraction created from
\ COMMENT an IRS spectral mapping dataset.
\ Extraction Rectangle:
\ # Box: 20:34:51.918,+60:09:22.61 ; 20:34:51.153,+60:09:13.09
\ #      20:34:52.641,+60:09:06.43 ; 20:34:53.406,+60:09:15.94
|   WAVELENGTH    |      FLUX       | FLUX_UNCERTAINTY |
|      real       |      real       |       real       |
|       um        |     e/s/pix     |     e/s/pix      |
         7.533706          628.9352           1.278294
         7.595799          720.0569           1.402494
         7.657894          705.6898           1.119070
         7.719988          682.6347           1.079704
         7.782082          682.2875           1.220710
         7.844176          654.1949           1.092178
         7.906271          591.3287           1.173660
         7.968365          548.6866           1.213870
         8.030458          439.3443           1.198438
         8.092554          385.6559           1.081261
         8.154648          357.4189           1.013233
         8.216742          343.4345          0.8562924
         8.278836          339.0465           1.014980
         8.340930          340.1227          0.8396469
         8.403025          338.6475          0.7582787
         8.465118          355.1387          0.7599364
         8.527213          382.3862          0.7451077
         8.589307          402.9820          0.8874561
         8.651402          358.1123          0.7371954
         8.713495          291.9753          0.6169702
         8.775590          231.4685          0.4769025
         8.837685          182.9430          0.4549045
         8.899778          153.6106          0.4491517
         8.961872          134.1074          0.4692688
         9.023967          119.7948          0.5397287
         9.086061          107.8632          0.6455662
         9.148155          101.9804          0.5492752
         9.210249          88.75517          0.6025993
         9.272344          94.42268          0.7532490
         9.334438          94.11097          0.7608539
         9.396532          88.24807          0.5825405
         9.458626          85.49741          0.6136102
         9.520720          78.92719          0.6213427
         9.582815          79.32166          0.8331233
         9.644909          85.80410          0.5798726
         9.707003          81.97178          0.6281894
         9.769097          74.04205          0.5438453
         9.831192          74.70172          0.5585711
         9.893286          72.26820          0.4657072
         9.955380          69.90205          0.4657614
         10.01747          72.28634          0.4664709
         10.07957          73.33317          0.4600882
         10.14166          72.81441          0.4641743
         10.20376          75.27562          0.4179214
         10.26585          75.97952          0.4945714
         10.32795          75.16819          0.4481596
         10.39004          83.97931          0.4666238
         10.45213          94.82042          0.4542913
         10.51423          103.9474          0.4313229
         10.57632          113.5832          0.4320579
         10.63842          117.0364          0.4267861
         10.70051          121.4588          0.5194048
         10.76260          118.7305          0.4925848
         10.82470          129.5007          0.5287828
         10.88679          136.3587          0.5648076
         10.94889          167.1563          0.5139760
         11.01098          197.6684          0.6268919
         11.07308          231.3255          0.5872353
         11.13517          363.5073          0.7066908
         11.19726          552.1675          0.8226238
         11.25936          625.9108          0.8103335
         11.32145          538.3961          0.7112674
         11.38355          452.5910          0.6978676
         11.44564          367.7723          0.6068611
         11.50774          320.9940          0.4956144
         11.56983          290.2625          0.5286165
         11.63192          255.4639          0.5752547
         11.69402          257.7343          0.5526286
         11.75611          258.3749          0.5660848
         11.81821          252.9902          0.5707675
         11.88030          288.6577          0.6399387
         11.94240          306.2516          0.6519933
         12.00449          298.7874          0.6077841
         12.06658          308.5001          0.5408354
         12.12868          300.7950          0.6050919
         12.19077          284.0189          0.6701251
         12.25287          309.5966          0.6102495
         12.31496          331.7073          0.6802421
         12.37705          362.6596          0.7805914
         12.43915          385.1210          0.7227351
         12.50124          407.8976          0.8705212
         12.56334          438.1942          0.7384826
         12.62543          464.9457          0.8377317
         12.68753          513.6658          0.7499436
         12.74962          608.7127          0.8964110
         12.81171          759.4581          0.8921882
         12.87381          507.7785          0.7299700
         12.93590          329.2176          0.5940458
         12.99800          292.2139          0.6160145
         13.06009          284.9890          0.5188499
         13.12218          271.7573          0.6351386
         13.18428          282.3709          0.4777110
         13.24637          280.7784          0.5625201
         13.30847          276.8716          0.5071461
         13.37056          265.8336          0.6673939
         13.43266          284.4337          0.6506858
         13.49475          254.6060          0.5956890
         13.55684          278.9719          0.5936641
         13.61894          255.3887          0.7550582
         13.68103          276.4392          0.6947618
         13.74313          252.2852          0.6687441
         13.80522          246.1617          0.7560917
         13.86732          230.8301          0.7099357
         13.92941          262.8274          0.7856494
         13.99150          257.0661          0.9006254
         14.05360          263.0647          0.8234935
         14.11569          265.4977          0.7939420
         14.17779          257.3911          0.7935413
         14.23988          282.7349          0.8573859
         14.30198          277.0085          0.8521178
         14.36407          260.9120          0.8015066
         14.42616          225.5118          0.5890979
         14.48826          223.1691          0.6950398
         14.55035          234.6459          0.6331774
         14.61245          228.6261          0.6739127
         14.67454          218.9489          0.6277675
         14.73664          206.7721          0.5038516
