\DATE= 'Sun Feb 17 15:31:45 2008'
\APERNAME= 'SL2'
\BUNIT= 'e/s/pix'
\CAL_SET= 'irs_2007_02_12-pb-pfc-trim-omeg-lhbiasfork.cal'
\SOFTWARE= 'CUBISM'
\SOFT_VER= 'v1.50pre3 (March-2007)'
\FILENAME= 'sl2.tbl'
\ COMMENT This file contains a spectral extraction created from
\ COMMENT an IRS spectral mapping dataset.
\ Extraction Rectangle:
\ # Box: 11:20:14.447,+12:59:25.37 ; 11:20:15.146,+12:59:21.03
\ #      11:20:15.641,+12:59:38.06 ; 11:20:14.942,+12:59:42.40
|   WAVELENGTH    |      FLUX       | FLUX_UNCERTAINTY |
|      real       |      real       |       real       |
|       um        |     e/s/pix     |     e/s/pix      |
         5.242817          20.14514           1.136794
         5.273802          20.50576           1.235757
         5.304788          19.92880           1.025314
         5.335773          22.11721           1.000734
         5.366758          20.01672          0.8840230
         5.397744          17.09614          0.8151237
         5.428729          19.73458          0.8656394
         5.459714          17.90040          0.6314417
         5.490700          17.09567          0.7550739
         5.521685          19.10110          0.5864165
         5.552670          19.32817          0.6078142
         5.583656          19.03934          0.6496760
         5.614641          17.62696          0.5888277
         5.645627          20.10867          0.5621048
         5.676612          20.08304          0.6114745
         5.707598          21.89612          0.5917710
         5.738583          21.25789          0.6163646
         5.769568          19.80556          0.5924494
         5.800553          22.00039          0.6675642
         5.831539          20.08330          0.7442455
         5.862525          20.83434          0.8311375
         5.893510          22.58983          0.7839125
         5.924495          22.52834          0.8062793
         5.955481          25.23386          0.8162944
         5.986466          26.31300          0.9110436
         6.017451          29.49737          0.9157304
         6.048437          30.31112          0.8084079
         6.079422          30.55092          0.7822413
         6.110407          32.88187          0.7347496
         6.141393          37.43128          0.6841995
         6.172378          45.83190          0.6701111
         6.203363          54.00669          0.7014862
         6.234349          56.13168          0.6399628
         6.265334          51.54865          0.6111492
         6.296319          46.18446          0.6087016
         6.327305          40.91988          0.6673381
         6.358290          39.51283          0.7075666
         6.389276          35.38245          0.6068531
         6.420261          31.84392          0.5918883
         6.451246          32.39718          0.7732410
         6.482232          29.26841          0.6531696
         6.513217          27.87246          0.6952026
         6.544202          28.41608          0.7843103
         6.575188          27.77172          0.8332930
         6.606173          28.09118          0.8656319
         6.637158          28.60624          0.9117459
         6.668144          28.35650          0.8590473
         6.699129          29.00284          0.8337266
         6.730114          29.69387          0.9942046
         6.761100          28.97476          0.8982785
         6.792085          29.70299          0.8804881
         6.823071          30.60944          0.8435298
         6.854056          32.49292          0.8710929
         6.885041          33.65032          0.8656328
         6.916027          39.13225          0.8006818
         6.947012          38.23705          0.8524339
         6.977998          37.19627          0.8719876
         7.008983          37.26919          0.9148828
         7.039968          35.36602          0.8483712
         7.070954          35.64081          0.9394580
         7.101939          37.70543          0.8610445
         7.132924          37.87020          0.8723156
         7.163910          41.80808          0.8650762
         7.194895          41.52216          0.8303210
         7.225881          41.30544           1.006617
         7.256866          44.22045          0.9387479
         7.287851          46.53898           1.079954
         7.318837          45.73593           1.240807
         7.349822          46.59027           1.286063
         7.380807          52.78457           1.410139
         7.411793          58.11971           1.421259
         7.442778          59.35598           1.267434
         7.473763          65.34048           1.198354
         7.504749          72.05317           1.321132
         7.535734          76.62379           1.376250
         7.566720          76.55761           1.356699
         7.597705          80.38007           1.433341
