\DATE= 'Mon Feb 18 01:56:22 2008'
\APERNAME= 'SL1'
\BUNIT= 'e/s/pix'
\CAL_SET= 'irs_2007_02_12-pb-pfc-trim-omeg-lhbiasfork.cal'
\SOFTWARE= 'CUBISM'
\SOFT_VER= 'v1.50pre3 (March-2007)'
\FILENAME= 'sl1.tbl'
\ COMMENT This file contains a spectral extraction created from
\ COMMENT an IRS spectral mapping dataset.
\ Extraction Rectangle:
\ # Box: 10:18:16.247,+41:25:28.90 ; 10:18:17.064,+41:25:22.67
\ #      10:18:17.618,+41:25:31.87 ; 10:18:16.800,+41:25:38.09
|   WAVELENGTH    |      FLUX       | FLUX_UNCERTAINTY |
|      real       |      real       |       real       |
|       um        |     e/s/pix     |     e/s/pix      |
         7.533706          21.45713           1.160381
         7.595799          24.17212          0.8402140
         7.657894          23.94256          0.9367743
         7.719988          22.64114          0.9645157
         7.782082          22.91969          0.7412822
         7.844176          21.88898          0.7462782
         7.906271          21.20077          0.9130599
         7.968365          16.41742          0.8323149
         8.030458          16.30460          0.9682818
         8.092554          14.50220          0.9057453
         8.154648          12.86384          0.7279368
         8.216742          11.28586          0.6903786
         8.278836          11.00367          0.7249191
         8.340930          11.23446          0.8015786
         8.403025          11.11973          0.5154691
         8.465118          12.55988          0.5983557
         8.527213          13.48949          0.4540890
         8.589307          15.49413          0.5711120
         8.651402          12.91214          0.5400823
         8.713495          11.88389          0.4359319
         8.775590          9.774257          0.4323026
         8.837685          8.671356          0.4450060
         8.899778          6.596653          0.4332698
         8.961872          5.499683          0.3960834
         9.023967          6.332325          0.4802777
         9.086061          5.368137          0.4295723
         9.148155          6.414256          0.5124761
         9.210249          5.894079          0.5892251
         9.272344          6.066268          0.4910119
         9.334438          5.996406          0.5848120
         9.396532          5.386173          0.5509781
         9.458626          4.971158          0.5554758
         9.520720          5.408638          0.6430755
         9.582815          4.985664          0.5873404
         9.644909          4.723534          0.6629785
         9.707003          4.658950          0.5716752
         9.769097          4.964645          0.4812584
         9.831192          4.963194          0.4302581
         9.893286          4.813318          0.4647180
         9.955380          3.676071          0.4327857
         10.01747          4.835519          0.4785547
         10.07957          4.536827          0.4033417
         10.14166          4.244462          0.3915382
         10.20376          4.482105          0.3832979
         10.26585          4.121482          0.4063776
         10.32795          3.876877          0.4684832
         10.39004          5.040057          0.4802154
         10.45213          4.282047          0.4449777
         10.51423          4.474807          0.3840177
         10.57632          6.231285          0.3710714
         10.63842          6.423751          0.3798532
         10.70051          5.009698          0.4545735
         10.76260          5.995825          0.5617726
         10.82470          4.779469          0.4080466
         10.88679          5.168907          0.4119760
         10.94889          6.426854          0.5014774
         11.01098          8.012651          0.5039035
         11.07308          9.613044          0.5173502
         11.13517          11.47176          0.5217061
         11.19726          18.95055          0.5211884
         11.25936          24.80004          0.6146213
         11.32145          23.45748          0.5062904
         11.38355          16.85125          0.5022942
         11.44564          15.10372          0.4981664
         11.50774          13.21819          0.4500309
         11.56983          11.27873          0.4275055
         11.63192          10.03915          0.4511642
         11.69402          9.475685          0.4306341
         11.75611          8.922606          0.4896753
         11.81821          8.827189          0.4024717
         11.88030          10.06409          0.3785490
         11.94240          10.33021          0.3810327
         12.00449          10.60137          0.4427895
         12.06658          9.330033          0.4546200
         12.12868          8.541669          0.4677486
         12.19077          9.565724          0.5079683
         12.25287          10.00753          0.5057083
         12.31496          10.38546          0.5384340
         12.37705          11.24012          0.5156088
         12.43915          12.10421          0.5501128
         12.50124          12.41259          0.5465171
         12.56334          13.99435          0.5799898
         12.62543          13.54135          0.5522577
         12.68753          14.50637          0.4285076
         12.74962          15.65173          0.5003836
         12.81171          25.60536          0.4625683
         12.87381          24.20121          0.4477388
         12.93590          12.84709          0.4370857
         12.99800          8.605189          0.4709229
         13.06009          7.130996          0.4492677
         13.12218          6.714198          0.4363262
         13.18428          7.700401          0.4547798
         13.24637          8.577902          0.4394830
         13.30847          8.853288          0.4153751
         13.37056          7.804820          0.4625458
         13.43266          6.610238          0.4386209
         13.49475          6.710670          0.4649538
         13.55684          7.245758          0.4732729
         13.61894          7.938593          0.5652040
         13.68103          7.082550          0.4903520
         13.74313          6.626993          0.5183827
         13.80522          6.375741          0.5834959
         13.86732          5.675529          0.6179808
         13.92941          6.284697          0.7269678
         13.99150          6.369168          0.6943357
         14.05360          5.948969          0.6681117
         14.11569          6.186445          0.8128515
         14.17779          6.457561          0.6751527
         14.23988          7.312134          0.6636437
         14.30198          5.624861          0.6014140
         14.36407          7.152763          0.5462841
         14.42616          6.359568          0.7202204
         14.48826          4.770186          0.5528832
         14.55035          5.671997          0.4691660
         14.61245          5.065619          0.6584988
         14.67454          5.248467          0.5883576
         14.73664          5.736500          0.4667633
