\DATE= 'Mon Feb 11 22:09:45 2008'
\APERNAME= 'SL1'
\BUNIT= 'e/s/pix'
\CAL_SET= 'irs_2007_02_12-pb-pfc-trim-omeg-lhbiasfork.cal'
\SOFTWARE= 'CUBISM'
\SOFT_VER= 'v1.50pre3 (March-2007)'
\FILENAME= 'sl1.tbl'
\ COMMENT This file contains a spectral extraction created from
\ COMMENT an IRS spectral mapping dataset.
\ Extraction Rectangle:
\ # Box: 22:37:04.058,+34:24:47.47 ; 22:37:04.828,+34:24:53.17
\ #      22:37:04.213,+34:25:05.87 ; 22:37:03.444,+34:25:00.17
|   WAVELENGTH    |      FLUX       | FLUX_UNCERTAINTY |
|      real       |      real       |       real       |
|       um        |     e/s/pix     |     e/s/pix      |
         7.533706          22.03393           1.157545
         7.595799          23.66351           1.033646
         7.657894          21.86282           1.048603
         7.719988          23.59726           1.056087
         7.782082          23.59461          0.8804559
         7.844176          22.18516           1.016023
         7.906271          19.05107          0.9178157
         7.968365          20.29163          0.9203518
         8.030458          19.81160          0.9374077
         8.092554          17.55819          0.8018222
         8.154648          16.66973          0.6804792
         8.216742          17.37290          0.6909194
         8.278836          14.63252          0.7541667
         8.340930          15.50519          0.5839319
         8.403025          16.03770          0.5503649
         8.465118          16.50925          0.6141273
         8.527213          18.66813          0.5186660
         8.589307          18.42180          0.5620676
         8.651402          17.25841          0.5193627
         8.713495          17.80995          0.4892639
         8.775590          16.75239          0.3972645
         8.837685          14.78381          0.4679287
         8.899778          15.13458          0.4367675
         8.961872          14.74578          0.5031182
         9.023967          13.34813          0.4878731
         9.086061          14.60246          0.6184648
         9.148155          13.16480          0.5897597
         9.210249          12.34415          0.6213464
         9.272344          12.21436          0.5888738
         9.334438          13.74089          0.6037244
         9.396532          13.04146          0.5796384
         9.458626          14.49117          0.6516302
         9.520720          13.32790          0.5737178
         9.582815          14.03389          0.5107436
         9.644909          11.85792          0.5437458
         9.707003          13.89752          0.5178475
         9.769097          12.99318          0.4555210
         9.831192          11.70483          0.4109434
         9.893286          12.57371          0.3928283
         9.955380          11.72074          0.4452727
         10.01747          13.03257          0.4286363
         10.07957          11.81730          0.3971242
         10.14166          11.75459          0.3884926
         10.20376          12.80319          0.3627450
         10.26585          12.71975          0.3947706
         10.32795          13.72115          0.4108152
         10.39004          11.91188          0.4011717
         10.45213          11.23611          0.4300662
         10.51423          11.98554          0.4209804
         10.57632          14.18400          0.4786545
         10.63842          13.45594          0.4765677
         10.70051          13.41576          0.5075933
         10.76260          14.63050          0.5074972
         10.82470          13.30122          0.4995962
         10.88679          13.95432          0.5960475
         10.94889          14.39845          0.4743540
         11.01098          16.13832          0.5631818
         11.07308          16.63917          0.4716700
         11.13517          18.44698          0.4390193
         11.19726          26.54596          0.4334659
         11.25936          34.75454          0.4575323
         11.32145          32.77119          0.4782982
         11.38355          29.83692          0.4423885
         11.44564          24.34826          0.4904094
         11.50774          22.82614          0.4249839
         11.56983          20.11142          0.4231800
         11.63192          17.97797          0.4459431
         11.69402          17.00148          0.4267817
         11.75611          16.46339          0.3832697
         11.81821          17.17858          0.4272130
         11.88030          15.63706          0.4508928
         11.94240          17.74767          0.4175305
         12.00449          18.29343          0.4659150
         12.06658          17.15366          0.4599093
         12.12868          15.75647          0.4782374
         12.19077          16.20135          0.5346599
         12.25287          17.24476          0.5977767
         12.31496          16.87973          0.6092746
         12.37705          17.13716          0.6226859
         12.43915          19.37416          0.5894450
         12.50124          17.65898          0.6688302
         12.56334          18.95068          0.4748306
         12.62543          20.74385          0.4538000
         12.68753          20.80909          0.4364378
         12.74962          22.62392          0.4376232
         12.81171          26.23758          0.3990164
         12.87381          24.34515          0.3934791
         12.93590          17.30253          0.4633628
         12.99800          14.57287          0.4025078
         13.06009          13.96938          0.4209781
         13.12218          13.39891          0.4386829
         13.18428          14.35468          0.4325359
         13.24637          12.81759          0.4759941
         13.30847          13.33570          0.4396744
         13.37056          14.67840          0.5249731
         13.43266          14.19815          0.4437141
         13.49475          12.04847          0.5864152
         13.55684          12.87747          0.5480568
         13.61894          13.69602          0.5335958
         13.68103          12.17532          0.5533995
         13.74313          13.43625          0.6268472
         13.80522          10.72334          0.6779740
         13.86732          13.16514          0.6500923
         13.92941          13.06918          0.6032293
         13.99150          10.67025          0.6650496
         14.05360          12.29978          0.6030847
         14.11569          11.46253          0.6139179
         14.17779          12.78814          0.6026259
         14.23988          11.77859          0.6233003
         14.30198          13.00345          0.5451372
         14.36407          11.37525          0.5313435
         14.42616          12.08957          0.6254522
         14.48826          10.98484          0.5385861
         14.55035          10.67665          0.5211918
         14.61245          9.535577          0.6012666
         14.67454          11.47063          0.4571082
         14.73664          9.021403          0.4952608
