\DATE= 'Fri Feb 15 23:46:12 2008'
\APERNAME= 'SL1'
\BUNIT= 'e/s/pix'
\CAL_SET= 'irs_2007_02_12-pb-pfc-trim-omeg-lhbiasfork.cal'
\SOFTWARE= 'CUBISM'
\SOFT_VER= 'v1.50pre3 (March-2007)'
\FILENAME= 'sl1.tbl'
\ COMMENT This file contains a spectral extraction created from
\ COMMENT an IRS spectral mapping dataset.
\ Extraction Rectangle:
\ # Box: 12:37:42.853,+11:49:04.80 ; 12:37:43.564,+11:49:01.04
\ #      12:37:43.906,+11:49:14.96 ; 12:37:43.195,+11:49:18.73
|   WAVELENGTH    |      FLUX       | FLUX_UNCERTAINTY |
|      real       |      real       |       real       |
|       um        |     e/s/pix     |     e/s/pix      |
         7.533706          15.28936          0.8885689
         7.595799          15.47824          0.7726276
         7.657894          15.13544          0.7321439
         7.719988          17.34205          0.5723196
         7.782082          14.53727          0.5752475
         7.844176          17.47699          0.5147168
         7.906271          16.16600          0.5153987
         7.968365          16.62141          0.4294022
         8.030458          16.90023          0.4624471
         8.092554          17.08600          0.5369937
         8.154648          13.92632          0.4145413
         8.216742          14.54123          0.4022758
         8.278836          13.17616          0.4150879
         8.340930          13.55626          0.3854383
         8.403025          13.67954          0.3268684
         8.465118          13.68175          0.3979121
         8.527213          13.04133          0.3715823
         8.589307          13.96212          0.4235484
         8.651402          13.14748          0.3949196
         8.713495          12.62070          0.3493601
         8.775590          13.63657          0.3406609
         8.837685          12.37631          0.3723140
         8.899778          13.01235          0.3733878
         8.961872          11.83619          0.4538803
         9.023967          12.30292          0.4380817
         9.086061          13.17065          0.4365979
         9.148155          13.64626          0.3955705
         9.210249          12.88999          0.4327991
         9.272344          13.55260          0.3922088
         9.334438          13.51799          0.4034211
         9.396532          14.33600          0.3265466
         9.458626          14.34165          0.3743498
         9.520720          14.67698          0.3617556
         9.582815          15.60106          0.3230076
         9.644909          19.64581          0.2821480
         9.707003          28.66502          0.2628646
         9.769097          22.36035          0.2608870
         9.831192          16.82488          0.2760770
         9.893286          16.93114          0.2836255
         9.955380          15.92316          0.2731164
         10.01747          16.48738          0.3066625
         10.07957          16.64903          0.2628025
         10.14166          16.60846          0.3178463
         10.20376          16.22573          0.2946629
         10.26585          16.77668          0.3241545
         10.32795          15.96934          0.3654025
         10.39004          16.53919          0.3586364
         10.45213          17.72372          0.3394408
         10.51423          17.94486          0.3598419
         10.57632          19.23171          0.3669628
         10.63842          18.20630          0.3633948
         10.70051          17.87669          0.3303916
         10.76260          17.74148          0.3072896
         10.82470          18.14509          0.2835386
         10.88679          17.44846          0.3110183
         10.94889          18.77542          0.2823900
         11.01098          17.99602          0.2932760
         11.07308          19.17239          0.2836349
         11.13517          19.95938          0.2662919
         11.19726          22.76748          0.2835448
         11.25936          27.99820          0.2741539
         11.32145          30.26111          0.2907569
         11.38355          29.62884          0.3022484
         11.44564          26.90300          0.3575612
         11.50774          25.98608          0.3088840
         11.56983          21.21885          0.3253900
         11.63192          20.73576          0.3508055
         11.69402          19.47772          0.3564781
         11.75611          18.35271          0.3521931
         11.81821          19.61575          0.3908578
         11.88030          18.47633          0.4268605
         11.94240          20.99792          0.3749939
         12.00449          19.30630          0.3829992
         12.06658          20.02230          0.4143879
         12.12868          20.08699          0.3774507
         12.19077          18.00881          0.3467103
         12.25287          19.71155          0.4237197
         12.31496          25.06086          0.3409303
         12.37705          24.30071          0.3382945
         12.43915          19.77981          0.3541744
         12.50124          19.07105          0.3355174
         12.56334          19.86541          0.2654249
         12.62543          19.62376          0.3186206
         12.68753          19.55557          0.2763435
         12.74962          19.99439          0.2923172
         12.81171          25.32592          0.3013256
         12.87381          33.31149          0.3183988
         12.93590          22.86201          0.3825819
         12.99800          17.90766          0.3710544
         13.06009          16.64546          0.3307367
         13.12218          16.25494          0.3525813
         13.18428          16.41381          0.3765970
         13.24637          16.96555          0.3996806
         13.30847          16.70922          0.4035289
         13.37056          16.76228          0.4098227
         13.43266          16.10063          0.4133621
         13.49475          16.49527          0.4058693
         13.55684          16.29593          0.3769524
         13.61894          16.50115          0.3684776
         13.68103          18.55066          0.3577653
         13.74313          15.89922          0.3563526
         13.80522          15.51809          0.3692734
         13.86732          15.53561          0.3809931
         13.92941          15.13449          0.3844802
         13.99150          16.40017          0.3683058
         14.05360          17.88815          0.3864962
         14.11569          16.53662          0.3906913
         14.17779          16.29785          0.4024432
         14.23988          17.37344          0.4290455
         14.30198          14.53857          0.4788142
         14.36407          15.57694          0.4152716
         14.42616          14.67248          0.3723080
         14.48826          14.08205          0.4047005
         14.55035          13.41640          0.4030404
         14.61245          12.82955          0.4183247
         14.67454          13.35202          0.4195571
         14.73664          13.54747          0.4271864
