\DATE= 'Fri Feb 15 23:47:07 2008'
\APERNAME= 'SL2'
\BUNIT= 'e/s/pix'
\CAL_SET= 'irs_2007_02_12-pb-pfc-trim-omeg-lhbiasfork.cal'
\SOFTWARE= 'CUBISM'
\SOFT_VER= 'v1.50pre3 (March-2007)'
\FILENAME= 'sl2.tbl'
\ COMMENT This file contains a spectral extraction created from
\ COMMENT an IRS spectral mapping dataset.
\ Extraction Rectangle:
\ # Box: 12:37:43.197,+11:49:02.47 ; 12:37:43.789,+11:48:59.33
\ #      12:37:44.046,+11:49:09.77 ; 12:37:43.453,+11:49:12.91
|   WAVELENGTH    |      FLUX       | FLUX_UNCERTAINTY |
|      real       |      real       |       real       |
|       um        |     e/s/pix     |     e/s/pix      |
         5.242817          17.18002           1.371086
         5.273802          15.74484           1.532885
         5.304788          17.42519           1.146978
         5.335773          22.32887           1.105857
         5.366758          21.73179           1.068462
         5.397744          17.36503           1.111021
         5.428729          17.61653           1.051898
         5.459714          15.80858          0.9464154
         5.490700          14.22865          0.9894080
         5.521685          20.93808          0.7713895
         5.552670          18.03891          0.9348584
         5.583656          18.05025          0.6820018
         5.614641          19.42917          0.7690123
         5.645627          17.52344          0.9454405
         5.676612          19.16106          0.9244058
         5.707598          17.15515          0.9338886
         5.738583          16.91402          0.9906096
         5.769568          17.47243           1.100521
         5.800553          16.33586          0.8601108
         5.831539          18.34713           1.003468
         5.862525          19.02755           1.089772
         5.893510          18.32207           1.133771
         5.924495          19.00957           1.253892
         5.955481          19.10016           1.219582
         5.986466          18.79897           1.151998
         6.017451          19.82341           1.023278
         6.048437          19.73671          0.9941721
         6.079422          19.31713           1.234570
         6.110407          23.67860           1.033119
         6.141393          22.13014           1.003121
         6.172378          23.04970          0.9086474
         6.203363          23.52725          0.9710854
         6.234349          23.45246          0.8296316
         6.265334          23.35485          0.8210794
         6.296319          23.92335          0.7761419
         6.327305          22.15368          0.8971267
         6.358290          23.02221          0.8420641
         6.389276          22.97029          0.8199180
         6.420261          20.51156          0.8258939
         6.451246          19.49766          0.9436606
         6.482232          20.83539          0.9772708
         6.513217          19.64225           1.000333
         6.544202          18.83374           1.204114
         6.575188          21.74009           1.335567
         6.606173          19.66284           1.129616
         6.637158          19.44788           1.158918
         6.668144          20.67981           1.269047
         6.699129          24.08833           1.211932
         6.730114          20.49557           1.082307
         6.761100          21.21326          0.9978628
         6.792085          20.20341           1.188058
         6.823071          20.67709           1.163951
         6.854056          19.79600           1.279580
         6.885041          21.65563           1.129655
         6.916027          25.02635           1.081696
         6.947012          32.66092          0.9828810
         6.977998          23.25925           1.347167
         7.008983          27.46668           1.094057
         7.039968          25.49734           1.386174
         7.070954          21.88493           1.219064
         7.101939          20.71394           1.181013
         7.132924          22.28488           1.276140
         7.163910          20.29559           1.163631
         7.194895          18.35642           1.254055
         7.225881          21.76920           1.290910
         7.256866          18.00809           1.819929
         7.287851          21.78879           1.555648
         7.318837          19.45201           1.575692
         7.349822          20.04709           1.811416
         7.380807          20.06920           2.086775
         7.411793          16.44340           1.994264
         7.442778          20.29576           1.744333
         7.473763          22.48034           1.532913
         7.504749          20.60831           1.658680
         7.535734          25.47640           1.553085
         7.566720          21.03766           1.798953
         7.597705          26.75611           2.288776
