\DATE= 'Sat Feb 16 23:35:39 2008'
\APERNAME= 'SL1'
\BUNIT= 'e/s/pix'
\CAL_SET= 'irs_2007_02_12-pb-pfc-trim-omeg-lhbiasfork.cal'
\SOFTWARE= 'CUBISM'
\SOFT_VER= 'v1.50pre3 (March-2007)'
\FILENAME= 'sl1.tbl'
\ COMMENT This file contains a spectral extraction created from
\ COMMENT an IRS spectral mapping dataset.
\ Extraction Rectangle:
\ # Box: 12:22:54.572,+15:49:19.44 ; 12:22:55.154,+15:49:15.56
\ #      12:22:55.316,+15:49:20.60 ; 12:22:54.734,+15:49:24.48
|   WAVELENGTH    |      FLUX       | FLUX_UNCERTAINTY |
|      real       |      real       |       real       |
|       um        |     e/s/pix     |     e/s/pix      |
         7.533706          73.58459           1.317108
         7.595799          91.41754           1.251692
         7.657894          94.51416           1.505716
         7.719988          92.72605           1.230981
         7.782082          91.57595          0.8788753
         7.844176          92.08987           1.062337
         7.906271          86.33605           1.300282
         7.968365          77.45963           1.031041
         8.030458          69.56444           1.188375
         8.092554          63.02147           1.187417
         8.154648          55.95465           1.169575
         8.216742          52.10666           1.289049
         8.278836          51.93177           1.320103
         8.340930          51.75725           1.137558
         8.403025          51.67705          0.9674327
         8.465118          52.93061           1.042623
         8.527213          56.36079          0.9081973
         8.589307          65.71287          0.8896891
         8.651402          59.94947          0.8832138
         8.713495          55.90506          0.8221955
         8.775590          49.20604          0.6878813
         8.837685          41.00541          0.6581045
         8.899778          35.43357          0.7383862
         8.961872          29.36314          0.6525571
         9.023967          28.36946          0.7350444
         9.086061          26.21655          0.6754174
         9.148155          25.12150          0.7350602
         9.210249          23.94919          0.6605320
         9.272344          24.13674          0.6839547
         9.334438          23.39544          0.7898922
         9.396532          23.37715          0.6811566
         9.458626          23.19205          0.8812998
         9.520720          22.02119          0.6830216
         9.582815          23.28934          0.8209838
         9.644909          25.97004          0.7333169
         9.707003          30.84229          0.7775161
         9.769097          26.98993          0.8551314
         9.831192          21.60284          0.6500304
         9.893286          21.54183          0.7212956
         9.955380          20.36740          0.6906784
         10.01747          21.15517          0.9267038
         10.07957          22.82575          0.7261621
         10.14166          21.57827          0.6078339
         10.20376          21.31949          0.5685983
         10.26585          21.80519          0.6175160
         10.32795          19.78587          0.5185675
         10.39004          20.54370          0.5565895
         10.45213          22.01960          0.5481471
         10.51423          24.41582          0.5565808
         10.57632          27.90986          0.6083557
         10.63842          29.31474          0.6829767
         10.70051          28.34040          0.7348378
         10.76260          30.25975          0.5321276
         10.82470          29.69372          0.6249247
         10.88679          30.16175          0.7377813
         10.94889          33.23735          0.6199578
         11.01098          36.48617          0.6603842
         11.07308          46.57793          0.7211464
         11.13517          50.83155          0.6413019
         11.19726          73.78199          0.9088743
         11.25936          117.3590          0.8424885
         11.32145          128.1693          0.8026383
         11.38355          111.3891          0.8270794
         11.44564          88.49765          0.8328276
         11.50774          75.39896          0.7616303
         11.56983          63.37120          0.8215744
         11.63192          57.37871          0.6643226
         11.69402          52.72364          0.7439813
         11.75611          49.88999          0.5254484
         11.81821          48.11595          0.5881835
         11.88030          50.36372          0.6427006
         11.94240          52.40226          0.6462274
         12.00449          55.05199          0.4845800
         12.06658          56.63808          0.7495990
         12.12868          53.41902          0.6740503
         12.19077          51.62485          0.7730803
         12.25287          52.25034          0.8527291
         12.31496          58.40773          0.7633293
         12.37705          63.32561          0.9691262
         12.43915          60.99310          0.6804049
         12.50124          61.80215          0.7830402
         12.56334          65.33746          0.8962402
         12.62543          70.98940          0.8636394
         12.68753          72.13950          0.7640970
         12.74962          75.94025          0.7059290
         12.81171          85.13297          0.8171567
         12.87381          110.5617          0.7425528
         12.93590          81.74570          0.7342499
         12.99800          52.48442          0.5698042
         13.06009          47.43141          0.7828024
         13.12218          43.60022          0.7810709
         13.18428          43.39845          0.7543049
         13.24637          43.72253          0.5810069
         13.30847          43.08615          0.6330831
         13.37056          43.64024          0.5679535
         13.43266          40.97266          0.7528160
         13.49475          41.34022          0.6272692
         13.55684          43.10233          0.4544896
         13.61894          43.21946          0.7398040
         13.68103          41.16421          0.7258461
         13.74313          40.28447          0.8120566
         13.80522          38.13875          0.9372020
         13.86732          37.53844          0.8589273
         13.92941          36.21688           1.032511
         13.99150          37.58194           1.071119
         14.05360          39.14782           1.058620
         14.11569          38.34658           1.313170
         14.17779          37.81452           1.358769
         14.23988          39.02459           1.123843
         14.30198          39.73151          0.9782157
         14.36407          37.74533          0.8551129
         14.42616          38.20591          0.9819598
         14.48826          34.70454          0.9109905
         14.55035          33.50476          0.8288202
         14.61245          33.15392          0.9042615
         14.67454          30.08475          0.7814232
         14.73664          29.65752          0.7337570
