\DATE= 'Sat Sep 29 01:49:53 2007'
\APERNAME= 'LL2'
\BUNIT= 'e/s/pix'
\CAL_SET= 'irs_2007_02_12-pb-pfc-trim-omeg-lhbiasfork.cal'
\SOFTWARE= 'CUBISM'
\SOFT_VER= 'v1.50pre3 (March-2007)'
\FILENAME= 'll2.tbl'
\ COMMENT This file contains a spectral extraction created from
\ COMMENT an IRS spectral mapping dataset.
\ Extraction Rectangle:
\ # Box: 12:36:50.145,+13:09:30.57 ; 12:36:50.880,+13:09:47.83
\ #      12:36:49.403,+13:10:01.24 ; 12:36:48.668,+13:09:43.98
|   WAVELENGTH    |      FLUX       | FLUX_UNCERTAINTY |
|      real       |      real       |       real       |
|       um        |     e/s/pix     |     e/s/pix      |
         14.26661          16.16790         0.08610298
         14.35830          15.77484         0.07950214
         14.45000          15.29609         0.07246613
         14.54169          14.93283         0.07376169
         14.63338          15.11425         0.07470336
         14.72508          15.22635         0.07185508
         14.81677          14.99533         0.07523246
         14.90846          15.14186         0.06978004
         15.00015          15.20064         0.06988207
         15.09185          15.96285         0.08395353
         15.18354          15.21000          0.1192227
         15.27523          16.31219          0.1287781
         15.36693          17.12534          0.3873090
         15.45862          19.79862          0.5423259
         15.55031          23.13262         0.07112978
         15.64200          21.15855         0.06656253
         15.73370          19.69234         0.06442649
         15.82539          20.94006         0.07091513
         15.91708          22.41227         0.08238800
         16.00878          22.42299         0.08039822
         16.10047          22.50550         0.08211848
         16.19216          23.41322         0.07882784
         16.28386          26.04290         0.08845923
         16.37555          30.52504         0.09568478
         16.46724          32.41709         0.08923344
         16.55893          30.44500          0.6846868
         16.65063          30.10816         0.08982753
         16.74232          31.08908         0.08921568
         16.83401          32.12960         0.09667602
         16.92570          36.25683         0.09509486
         17.01740          46.83439         0.09338254
         17.10909          41.33566         0.08597308
         17.20078          34.40911         0.08853313
         17.29248          33.74908         0.08879022
         17.38417          33.35405         0.08841070
         17.47586          31.56563         0.09387197
         17.56756          30.43248         0.08786653
         17.65925          29.89924         0.09492572
         17.75094          30.36678         0.09234478
         17.84263          29.72776          0.1054933
         17.93433          29.60567          0.1024150
         18.02602          28.77483         0.09714936
         18.11771          28.43609         0.09793054
         18.20941          28.27012          0.1097382
         18.30110          28.59619          0.4459549
         18.39279          28.97247          0.1117941
         18.48449          29.43551          0.1082525
         18.57618          30.19803          0.1136077
         18.66787          33.89066          0.1438368
         18.75956          33.91405          0.2240352
         18.85126          31.23470          0.1225601
         18.94295          31.09859          0.1116084
         19.03464          30.88489          0.1113038
         19.12634          31.89309          0.1203253
         19.21803          31.30745          0.1214440
         19.30972          31.65577          0.1323725
         19.40141          31.38833          0.1478687
         19.49311          31.91583          0.1305776
         19.58480          31.63470          0.1246262
         19.67649          31.64125          0.1351565
         19.76819          31.13058          0.4174836
         19.85988          30.40933          0.6279969
         19.95157          30.27440          0.1450550
         20.04326          28.93291          0.1543765
         20.13496          29.57298          0.1527298
         20.22665          28.92467          0.1447451
         20.31834          28.41050          0.1579228
         20.41004          29.02551          0.1656213
         20.50173          29.27815          0.1714313
         20.59342          28.94551          0.1856028
         20.68512          28.93557          0.1771823
         20.77681          29.27184          0.1858467
         20.86850          28.54125          0.1888972
         20.96019          27.98479          0.1807059
         21.05189          27.26812          0.1828235
