\DATE= 'Fri Sep 28 20:00:40 2007'
\APERNAME= 'LL2'
\BUNIT= 'e/s/pix'
\CAL_SET= 'irs_2007_02_12-pb-pfc-trim-omeg-lhbiasfork.cal'
\SOFTWARE= 'CUBISM'
\SOFT_VER= 'v1.50pre3 (March-2007)'
\FILENAME= 'll2.tbl'
\ COMMENT This file contains a spectral extraction created from
\ COMMENT an IRS spectral mapping dataset.
\ Extraction Rectangle:
\ # Box: 12:22:57.162,+15:48:43.04 ; 12:22:58.251,+15:49:09.16
\ #      12:22:53.124,+15:49:53.69 ; 12:22:52.035,+15:49:27.57
|   WAVELENGTH    |      FLUX       | FLUX_UNCERTAINTY |
|      real       |      real       |       real       |
|       um        |     e/s/pix     |     e/s/pix      |
         14.26661          7.516722         0.04418572
         14.35830          7.491756         0.03404317
         14.45000          7.139068         0.03509910
         14.54169          6.600854         0.03475783
         14.63338          6.458113         0.03580610
         14.72508          6.299264         0.03802550
         14.81677          6.293504         0.03668559
         14.90846          6.291320         0.03553529
         15.00015          6.079340         0.03264809
         15.09185          6.105687         0.03322068
         15.18354          6.208606         0.03958037
         15.27523          6.232171         0.05201270
         15.36693          6.219766         0.03044421
         15.45862          6.444616         0.09824611
         15.55031          7.047952         0.03689719
         15.64200          7.949434         0.03033251
         15.73370          7.444752         0.03003803
         15.82539          7.085414         0.03218880
         15.91708          7.349994         0.03473791
         16.00878          7.519246         0.03647458
         16.10047          7.740740         0.03752116
         16.19216          7.900941         0.04791720
         16.28386          8.308448         0.07025822
         16.37555          9.459229         0.04260138
         16.46724          11.58668         0.04091107
         16.55893          12.57375         0.03962599
         16.65063          11.84578         0.03833080
         16.74232          11.69245         0.03866445
         16.83401          11.92124         0.04000750
         16.92570          12.16199         0.04064494
         17.01740          13.37368         0.03697930
         17.10909          16.42288         0.07783687
         17.20078          15.62286         0.03605555
         17.29248          13.32848         0.03702841
         17.38417          13.09164         0.03796549
         17.47586          12.92652         0.03733863
         17.56756          11.79789         0.03572932
         17.65925          10.62075         0.03566055
         17.75094          10.16292         0.03728257
         17.84263          10.01492         0.03853837
         17.93433          10.06845         0.03898232
         18.02602          9.614110         0.04028817
         18.11771          9.179751         0.04023609
         18.20941          8.986897         0.04147650
         18.30110          8.877199         0.04215475
         18.39279          8.989361          0.1095840
         18.48449          9.058041         0.04500600
         18.57618          9.140226         0.04558231
         18.66787          9.605425         0.04774078
         18.75956          12.04672         0.06086081
         18.85126          12.81823         0.05191382
         18.94295          10.35998         0.05156529
         19.03464          9.905334         0.05218137
         19.12634          9.922638         0.05619149
         19.21803          9.744138         0.05856525
         19.30972          9.684447         0.06050443
         19.40141          9.537324         0.06515612
         19.49311          9.483541         0.06191111
         19.58480          9.554687         0.06072322
         19.67649          9.645454         0.06518211
         19.76819          9.678229         0.06582625
         19.85988          9.561897         0.07968044
         19.95157          9.730121         0.06363153
         20.04326          9.797826         0.07035838
         20.13496          9.800707         0.05913512
         20.22665          9.826341         0.06377448
         20.31834          9.804243         0.06634600
         20.41004          10.00325         0.06860753
         20.50173          9.964352         0.06984238
         20.59342          9.937345         0.09879258
         20.68512          10.17682          0.1290978
         20.77681          10.07735          0.1006421
         20.86850          10.07286         0.09995072
         20.96019          9.691301         0.09450866
         21.05189          9.306298         0.09195695
